{
  "resourceType": "Bundle",
  "id": "bundle-example",
  "type": "collection",
  "timestamp": "2021-04-30T02:51:24.2424Z",
  "entry": [
    {
      "fullUrl": "https://127.0.0.1:50440/4_0_0/Slot/1275501447-UHG-MMMA-existing",
      "resource": {
        "resourceType": "Slot",
        "id": "1275501447-UHG-MMMA-existing",
        "meta": {
          "versionId": "1",
          "lastUpdated": "2021-04-30T02:51:24+00:00",
          "security": [
            {
              "system": "https://www.icanbwell.com/access",
              "code": "medstar"
            }
          ]
        },
        "serviceType": [
          {
            "coding": [
              {
                "system": "http://medstarhealth.org",
                "code": "EXISTING"
              }
            ]
          }
        ],
        "schedule": {
          "reference": "Schedule/1275501447-UHG-MMMA"
        },
        "start": "2021-11-04T14:00:00.000+08:00",
        "end": "2021-11-04T14:00:00.000+08:00"
      }
    },
    {
      "fullUrl": "https://127.0.0.1:50440/4_0_0/Schedule/1275501447-UHG-MMMA",
      "resource": {
        "resourceType": "Schedule",
        "id": "1275501447-UHG-MMMA",
        "meta": {
          "versionId": "1",
          "lastUpdated": "2021-04-30T02:51:24+00:00",
          "source": "http://medstarhealth.org/provider_appointment_type",
          "security": [
            {
              "system": "https://www.icanbwell.com/access",
              "code": "medstar"
            }
          ]
        },
        "serviceType": [
          {
            "coding": [
              {
                "system": "http://medstarhealth.org/appointment-type",
                "code": "LNG",
                "display": "LNG"
              }
            ],
            "text": "Medstar Appointment Type"
          },
          {
            "coding": [
              {
                "system": "http://medstarhealth.org/appointment-type",
                "code": "EV4",
                "display": "EV4"
              }
            ],
            "text": "Medstar Appointment Type"
          },
          {
            "coding": [
              {
                "system": "http://medstarhealth.org/appointment-type",
                "code": "SHT",
                "display": "SHT"
              }
            ],
            "text": "Medstar Appointment Type"
          },
          {
            "coding": [
              {
                "system": "http://medstarhealth.org/appointment-type",
                "code": "ERN",
                "display": "ERN"
              }
            ],
            "text": "Medstar Appointment Type"
          },
          {
            "coding": [
              {
                "system": "http://medstarhealth.org/appointment-type",
                "code": "PHN",
                "display": "PHN"
              }
            ],
            "text": "Medstar Appointment Type"
          },
          {
            "coding": [
              {
                "system": "http://medstarhealth.org/protocol",
                "code": "PrimaryCare",
                "display": "PrimaryCare"
              }
            ],
            "text": "Medstar Protocol Departments"
          }
        ],
        "actor": [
          {
            "reference": "PractitionerRole/1275501447-UHG-MMMA"
          }
        ]
      }
    },
    {
      "fullUrl": "https://127.0.0.1:50440/4_0_0/PractitionerRole/1275501447-UHG-MMMA",
      "resource": {
        "resourceType": "PractitionerRole",
        "id": "1275501447-UHG-MMMA",
        "meta": {
          "versionId": "1",
          "lastUpdated": "2021-04-30T02:51:24+00:00",
          "source": "http://medstarhealth.org/provider",
          "security": [
            {
              "system": "https://www.icanbwell.com/access",
              "code": "medstar"
            }
          ]
        },
        "identifier": [
          {
            "use": "usual",
            "type": {
              "coding": [
                {
                  "system": "http://medstarhealth.org",
                  "code": "Medstar Provider-Protocol",
                  "display": "Medstar Provider-Protocol"
                }
              ]
            },
            "system": "http://medstarhealth.org",
            "value": "1275501447-UHG-MMMA"
          }
        ],
        "practitioner": {
          "reference": "Practitioner/1275501447"
        },
        "organization": {
          "reference": "Organization/Medstar-Alias-UHG-MMMA"
        },
        "code": [
          {
            "coding": [
              {
                "system": "http://terminology.hl7.org/CodeSystem/practitioner-role",
                "code": "doctor"
              }
            ]
          },
          {
            "coding": [
              {
                "system": "http://terminology.hl7.org/CodeSystem/practitioner-role",
                "code": "doctor",
                "display": "Doctor"
              }
            ],
            "text": "Doctor"
          }
        ],
        "specialty": [
          {
            "coding": [
              {
                "system": "http://nucc.org/provider-taxonomy",
                "code": "261QP2300X",
                "display": "Primary Care"
              }
            ],
            "text": "Primary Care Flag"
          }
        ],
        "location": [
          {
            "reference": "Location/Medstar-Alias-UHG-MMMA"
          }
        ],
        "healthcareService": [
          {
            "reference": "HealthcareService/1275501447-UHG-MMMA"
          }
        ]
      }
    },
    {
      "fullUrl": "https://127.0.0.1:50440/4_0_0/Practitioner/1275501447",
      "resource": {
        "resourceType": "Practitioner",
        "id": "1275501447",
        "meta": {
          "versionId": "1",
          "lastUpdated": "2021-04-30T02:51:24+00:00",
          "source": "http://medstarhealth.org/provider_headshots",
          "security": [
            {
              "system": "https://www.icanbwell.com/access",
              "code": "medstar"
            }
          ]
        },
        "identifier": [
          {
            "use": "official",
            "type": {
              "coding": [
                {
                  "system": "http://terminology.hl7.org/CodeSystem/v2-0203",
                  "code": "TAX"
                }
              ]
            },
            "system": "http://hl7.org/fhir/sid/us-tin",
            "value": "46-1322238"
          },
          {
            "use": "usual",
            "type": {
              "coding": [
                {
                  "system": "http://terminology.hl7.org/CodeSystem/v2-0203",
                  "code": "PRN"
                }
              ]
            },
            "system": "http://medstarhealth.org",
            "value": "500136"
          },
          {
            "use": "official",
            "type": {
              "coding": [
                {
                  "system": "http://terminology.hl7.org/CodeSystem/v2-0203",
                  "code": "NPI"
                }
              ]
            },
            "system": "http://hl7.org/fhir/sid/us-npi",
            "value": "1275501447"
          }
        ],
        "active": true,
        "name": [
          {
            "use": "usual",
            "text": "JEFFREY COOL MD",
            "family": "Cool",
            "given": [
              "JEFFREY",
              "A"
            ]
          }
        ],
        "telecom": [
          {
            "system": "email",
            "value": "jeffrey.cool@direct.medstar.net",
            "use": "work"
          }
        ],
        "gender": "male",
        "photo": [
          {
            "contentType": "image/jpg",
            "url": "https://uep.medstarhealth.org/content/uploads/profile_images/Jeffrey-Cool-MPP_jpg.jpg",
            "title": "Practitioner headshot: Jeffrey Cool - 1275501447"
          }
        ],
        "qualification": [
          {
            "code": {
              "coding": [
                {
                  "system": "http://terminology.hl7.org/ValueSet/v2-2.7-030",
                  "code": "MD"
                }
              ]
            }
          },
          {
            "code": {
              "coding": [
                {
                  "system": "http://terminology.hl7.org/ValueSet/v2-2.7-030",
                  "code": "MD"
                }
              ]
            },
            "period": {
              "start": "1987-01-01T00:00:00.000Z",
              "end": "2099-12-31T00:00:00.000Z"
            },
            "issuer": {
              "reference": "Organization/MedStar-Union-Memorial-Hospital",
              "display": "MedStar Union Memorial Hospital"
            }
          }
        ],
        "communication": [
          {
            "coding": [
              {
                "system": "urn:ietf:bcp:47",
                "code": "en",
                "display": "English"
              }
            ]
          }
        ]
      }
    }
  ]
}
