{
  "entry": [
    {
      "resource": {
        "active": true,
        "communication": [
          {
            "coding": [
              {
                "code": "en",
                "system": "urn:ietf:bcp:47"
              }
            ]
          }
        ],
        "gender": "unknown",
        "id": "1679033641",
        "identifier": [
          {
            "system": "http://medstarhealth.org",
            "type": {
              "coding": [
                {
                  "code": "PRN",
                  "system": "http://terminology.hl7.org/CodeSystem/v2-0203"
                }
              ]
            },
            "use": "usual",
            "value": "4657"
          },
          {
            "system": "http://hl7.org/fhir/sid/us-npi",
            "type": {
              "coding": [
                {
                  "code": "NPI",
                  "system": "http://terminology.hl7.org/CodeSystem/v2-0203"
                }
              ]
            },
            "use": "official",
            "value": "1679033641"
          }
        ],
        "meta": {
          "security": [
            {
              "code": "medstar",
              "system": "https://www.icanbwell.com/access"
            }
          ]
        },
        "name": [
          {
            "family": "NAJJAR  MD",
            "given": [
              "SAMER S."
            ],
            "text": "SAMER S. NAJJAR  MD",
            "use": "usual"
          },
          {
            "family": "NAJJAR  MD",
            "given": [
              "SAMER S."
            ],
            "text": "NAJJAR  MD, SAMER S.",
            "use": "usual"
          }
        ],
        "qualification": [
          {
            "code": {
              "coding": [
                {
                  "code": "MD",
                  "system": "http://terminology.hl7.org/ValueSet/v2-2.7-030"
                }
              ]
            }
          },
          {
            "code": {
              "coding": [
                {
                  "code": "MD",
                  "system": "http://terminology.hl7.org/ValueSet/v2-2.7-030"
                }
              ]
            },
            "issuer": {
              "reference": "Organization/Stanford_Medical_School"
            },
            "period": {
              "end": "2021-12-11",
              "start": "1960-01-01"
            }
          }
        ],
        "resourceType": "Practitioner",
        "telecom": [
          {
            "system": "email",
            "use": "work",
            "value": "foo@foo.com"
          }
        ]
      }
    },
    {
      "resource": {
        "code": [
          {
            "coding": [
              {
                "code": "doctor",
                "display": "Doctor",
                "system": "http://terminology.hl7.org/CodeSystem/practitioner-role"
              }
            ],
            "text": "Doctor"
          }
        ],
        "healthcareService": [
          {
            "reference": "HealthcareService/1679033641-UF3-UADM"
          }
        ],
        "id": "4657-3437",
        "location": [
          {
            "reference": "Location/UF3-UADM"
          }
        ],
        "meta": {
          "security": [
            {
              "code": "medstar",
              "system": "https://www.icanbwell.com/access"
            }
          ]
        },
        "practitioner": {
          "reference": "Practitioner/1679033641"
        },
        "resourceType": "PractitionerRole",
        "specialty": [
          {
            "coding": [
              {
                "code": "Family Medicine",
                "display": "Family Medicine",
                "system": "https://www.http://medstarhealth.org/"
              }
            ],
            "text": "Family Medicine"
          },
          {
            "coding": [
              {
                "code": "207Q00000X",
                "display": "Family Medicine",
                "system": "http://nucc.org/provider-taxonomy"
              }
            ],
            "text": "Family Medicine"
          },
          {
            "coding": [
              {
                "code": "261QP2300X",
                "display": "Primary Care",
                "system": "http://nucc.org/provider-taxonomy"
              }
            ],
            "text": "Primary Care"
          }
        ]
      }
    },
    {
      "resource": {
        "address": {
          "city": "BALTIMORE",
          "line": [
            "33RD STREET PROFESSIONAL BLDG,G",
            "200 EAST 33RD STREET"
          ],
          "postalCode": "21218",
          "state": "MD"
        },
        "id": "UF3-UADM",
        "identifier": [
          {
            "system": "MedstarHealth.org",
            "type": {
              "coding": [
                {
                  "code": "FI",
                  "display": "Facility ID",
                  "system": "http://terminology.hl7.org/CodeSystem/v2-0203"
                }
              ],
              "text": "Facility ID"
            },
            "value": "UF3"
          },
          {
            "system": "MedstarHealth.org",
            "type": {
              "coding": [
                {
                  "code": "XX",
                  "display": "Organization Identifier",
                  "system": "http://terminology.hl7.org/CodeSystem/v2-0203"
                }
              ],
              "text": "Organization Identifier"
            },
            "value": "3437"
          }
        ],
        "meta": {
          "security": [
            {
              "code": "medstar",
              "system": "https://www.icanbwell.com/access"
            }
          ]
        },
        "name": "UMH 33RD ST PROF BLDG 3RD FL",
        "position": {
          "latitude": 39.32792,
          "longitude": -76.61668
        },
        "resourceType": "Location",
        "status": "active"
      }
    },
    {
      "resource": {
        "eligibility": [
          {
            "code": {
              "coding": [
                {
                  "code": "185387006",
                  "display": "New Patient",
                  "system": "http://snomed.info/sct"
                }
              ]
            }
          },
          {
            "code": {
              "coding": [
                {
                  "code": "448337001",
                  "display": "Telehealth Visit",
                  "system": "http://snomed.info/sct"
                }
              ]
            }
          },
          {
            "code": {
              "coding": [
                {
                  "code": "0 - 100",
                  "display": "0 - 100",
                  "system": "MedstarHealth.org"
                }
              ]
            },
            "comment": "Age Group Seen"
          }
        ],
        "id": "1679033641-UF3-UADM",
        "meta": {
          "security": [
            {
              "code": "medstar",
              "system": "https://www.icanbwell.com/access"
            }
          ]
        },
        "resourceType": "HealthcareService"
      }
    },
    {
      "resource": {
        "extension": [
          {
            "extension": [
              {
                "url": "plan",
                "valueReference": {
                  "reference": "InsurancePlan/AETNA-Aetna-Elect-Choice--EPO--Aetna-Health-Fund--Innovation-He"
                }
              }
            ],
            "url": "https://raw.githubusercontent.com/imranq2/SparkAutoMapper.FHIR/main/StructureDefinition/insurance_plan"
          },
          {
            "url": "foo",
            "valueString": "bar"
          }
        ],
        "id": "1679033641-AETNA-Aetna-Elect-Choice--EPO--Aetna-Health-Fund--In",
        "meta": {
          "security": [
            {
              "code": "medstar",
              "system": "https://www.icanbwell.com/access"
            }
          ]
        },
        "organization": {
          "display": "MWHC",
          "reference": "Organization/MWHC",
          "type": "Organization"
        },
        "practitioner": {
          "reference": "Practitioner/1679033641"
        },
        "resourceType": "PractitionerRole"
      }
    },
    {
      "resource": {
        "id": "MWHC",
        "identifier": [
          {
            "type": {
              "coding": [
                {
                  "code": "FI",
                  "display": "Facility Id",
                  "system": "http://terminology.hl7.org/CodeSystem/v2-0203"
                }
              ]
            },
            "value": "MWHC"
          }
        ],
        "meta": {
          "security": [
            {
              "code": "medstar",
              "system": "https://www.icanbwell.com/access"
            }
          ]
        },
        "resourceType": "Organization",
        "type": [
          {
            "coding": [
              {
                "code": "prov",
                "display": "Healthcare Provider",
                "system": "http://terminology.hl7.org/CodeSystem/organization-type"
              }
            ]
          }
        ]
      }
    },
    {
      "resource": {
        "id": "AETNA-Aetna-Elect-Choice--EPO--Aetna-Health-Fund--Innovation-He",
        "meta": {
          "security": [
            {
              "code": "medstar",
              "system": "https://www.icanbwell.com/access"
            }
          ]
        },
        "name": "AETNA-Aetna Elect Choice/ EPO (Aetna Health Fund) Innovation Health: Network Only Plus",
        "ownedBy": {
          "reference": "Organization/AETNA"
        },
        "plan": [
          {
            "coverageArea": [
              {
                "reference": "Location/1886535265"
              }
            ],
            "identifier": [
              {
                "type": {
                  "coding": [
                    {
                      "code": "XV",
                      "display": "Health Plan",
                      "system": "http://terminology.hl7.org/CodeSystem/v2-0203"
                    }
                  ]
                },
                "value": "Aetna Elect Choice/ EPO (Aetna Health Fund) Innovation Health: Network Only Plus"
              }
            ]
          }
        ],
        "resourceType": "InsurancePlan"
      }
    },
    {
      "resource": {
        "code": [
          {
            "coding": [
              {
                "code": "doctor",
                "system": "http://terminology.hl7.org/CodeSystem/practitioner-role"
              }
            ]
          }
        ],
        "healthcareService": [
          {
            "reference": "HealthcareService/MAX-MALX"
          }
        ],
        "id": "MAX-MALX",
        "identifier": [
          {
            "system": "MedstarHealth.org",
            "type": {
              "coding": [
                {
                  "code": "Medstar Provider-Scheduling ID",
                  "display": "Medstar Provider-Scheduling ID",
                  "system": "MedstarHealth.org"
                }
              ]
            },
            "use": "usual",
            "value": "MAX-MALX"
          }
        ],
        "location": [
          {
            "reference": "Location/MAX-MALX"
          }
        ],
        "meta": {
          "security": [
            {
              "code": "medstar",
              "system": "https://www.icanbwell.com/access"
            }
          ]
        },
        "practitioner": {
          "reference": "Practitioner/1679033641"
        },
        "resourceType": "PractitionerRole",
        "specialty": [
          {
            "coding": [
              {
                "code": "Family Medicine",
                "display": "Family Medicine",
                "system": "MedstarHealth.org"
              }
            ],
            "text": "Provider's Primary Specialty"
          },
          {
            "coding": [
              {
                "code": "Family Medicine",
                "display": "Family Medicine",
                "system": "MedstarHealth.org"
              }
            ],
            "text": "Provider's Primary Specialty Group"
          }
        ]
      }
    },
    {
      "resource": {
        "eligibility": [
          {
            "code": {
              "coding": [
                {
                  "code": "No Limit",
                  "display": "No Limit",
                  "system": "MedstarHealth.org"
                }
              ]
            },
            "comment": "Minimum patient age"
          },
          {
            "code": {
              "coding": [
                {
                  "code": "No Limit",
                  "display": "No Limit",
                  "system": "MedstarHealth.org"
                }
              ]
            },
            "comment": "Maximum patient age"
          },
          {
            "code": {
              "coding": [
                {
                  "code": "Y",
                  "display": "Y",
                  "system": "MedstarHealth.org"
                }
              ]
            },
            "comment": "Accepts Workers Compensation Patients"
          },
          {
            "code": {
              "coding": [
                {
                  "code": "Y",
                  "display": "Y",
                  "system": "MedstarHealth.org"
                }
              ]
            },
            "comment": "Accepts Auto Accident Patients"
          },
          {
            "code": {
              "coding": [
                {
                  "code": "Y",
                  "display": "Y",
                  "system": "MedstarHealth.org"
                }
              ]
            },
            "comment": "Video Visit available"
          }
        ],
        "id": "MAX-MALX",
        "identifier": [
          {
            "system": "MedstarHealth.org",
            "use": "usual",
            "value": "MAX-MALX"
          }
        ],
        "meta": {
          "security": [
            {
              "code": "medstar",
              "system": "https://www.icanbwell.com/access"
            }
          ]
        },
        "name": "Primary Care",
        "providedBy": {
          "identifier": {
            "system": "MedstarHealth.Org",
            "value": "MAX"
          },
          "type": "Organization"
        },
        "resourceType": "HealthcareService",
        "specialty": [
          {
            "coding": [
              {
                "code": "Family Medicine",
                "display": "Family Medicine",
                "system": "MedstarHealth.org"
              }
            ],
            "text": "Primary Specialty"
          },
          {
            "coding": [
              {
                "code": "Family Medicine",
                "display": "Family Medicine",
                "system": "MedstarHealth.org"
              }
            ],
            "text": "Primary Specialty Group"
          }
        ]
      }
    }
  ],
  "id": "bundle-example",
  "resourceType": "Bundle",
  "type": "collection"
}
