{
  "entry": [
    {
      "resource": {
        "active": true,
        "communication": [
          {
            "coding": [
              {
                "code": "en",
                "system": "urn:ietf:bcp:47"
              }
            ]
          }
        ],
        "gender": "unknown",
        "id": "1679033641",
        "identifier": [
          {
            "system": "http://medstarhealth.org",
            "type": {
              "coding": [
                {
                  "code": "PRN",
                  "system": "http://terminology.hl7.org/CodeSystem/v2-0203"
                }
              ]
            },
            "use": "usual",
            "value": "4657"
          },
          {
            "system": "http://hl7.org/fhir/sid/us-npi",
            "type": {
              "coding": [
                {
                  "code": "NPI",
                  "system": "http://terminology.hl7.org/CodeSystem/v2-0203"
                }
              ]
            },
            "use": "official",
            "value": "1679033641"
          }
        ],
        "meta": {
          "security": [
            {
              "code": "medstar",
              "system": "https://www.icanbwell.com/access"
            }
          ]
        },
        "name": [
          {
            "family": "NAJJAR  MD",
            "given": [
              "SAMER S."
            ],
            "text": "SAMER S. NAJJAR  MD",
            "use": "usual"
          },
          {
            "family": "NAJJAR  MD",
            "given": [
              "SAMER S."
            ],
            "text": "NAJJAR  MD, SAMER S.",
            "use": "usual"
          }
        ],
        "qualification": [
          {
            "code": {
              "coding": [
                {
                  "code": "MD",
                  "system": "http://terminology.hl7.org/ValueSet/v2-2.7-030"
                }
              ]
            }
          },
          {
            "code": {
              "coding": [
                {
                  "code": "MD",
                  "system": "http://terminology.hl7.org/ValueSet/v2-2.7-030"
                }
              ]
            },
            "issuer": {
              "reference": "Organization/Stanford_Medical_School"
            },
            "period": {
              "end": "2021-12-11",
              "start": "1960-01-01"
            }
          }
        ],
        "resourceType": "Practitioner",
        "telecom": [
          {
            "system": "email",
            "use": "work",
            "value": "foo@foo.com"
          }
        ]
      }
    },
    {
      "resource": {
        "code": [
          {
            "coding": [
              {
                "code": "doctor",
                "display": "Doctor",
                "system": "http://terminology.hl7.org/CodeSystem/practitioner-role"
              }
            ],
            "text": "Doctor"
          }
        ],
        "healthcareService": [
          {
            "reference": "HealthcareService/1679033641-UF3-UADM"
          }
        ],
        "id": "4657-3437",
        "location": [
          {
            "reference": "Location/UF3-UADM"
          }
        ],
        "meta": {
          "security": [
            {
              "code": "medstar",
              "system": "https://www.icanbwell.com/access"
            }
          ]
        },
        "practitioner": {
          "reference": "Practitioner/1679033641"
        },
        "resourceType": "PractitionerRole",
        "specialty": [
          {
            "coding": [
              {
                "code": "Family Medicine",
                "display": "Family Medicine",
                "system": "https://www.http://medstarhealth.org/"
              }
            ],
            "text": "Family Medicine"
          },
          {
            "coding": [
              {
                "code": "207Q00000X",
                "display": "Family Medicine",
                "system": "http://nucc.org/provider-taxonomy"
              }
            ],
            "text": "Family Medicine"
          },
          {
            "coding": [
              {
                "code": "261QP2300X",
                "display": "Primary Care",
                "system": "http://nucc.org/provider-taxonomy"
              }
            ],
            "text": "Primary Care"
          }
        ]
      }
    },
    {
      "resource": {
        "extension": [
          {
            "extension": [
              {
                "url": "plan",
                "valueReference": {
                  "reference": "InsurancePlan/AETNA-Aetna-Elect-Choice--EPO--Aetna-Health-Fund--Innovation-He"
                }
              }
            ],
            "url": "https://raw.githubusercontent.com/imranq2/SparkAutoMapper.FHIR/main/StructureDefinition/insurance_plan"
          },
          {
            "url": "foo",
            "valueString": "bar"
          }
        ],
        "id": "1679033641-AETNA-Aetna-Elect-Choice--EPO--Aetna-Health-Fund--In",
        "meta": {
          "security": [
            {
              "code": "medstar",
              "system": "https://www.icanbwell.com/access"
            }
          ]
        },
        "organization": {
          "display": "MWHC",
          "reference": "Organization/MWHC",
          "type": "Organization"
        },
        "practitioner": {
          "reference": "Practitioner/1679033641"
        },
        "resourceType": "PractitionerRole"
      }
    },
    {
      "resource": {
        "id": "MWHC",
        "identifier": [
          {
            "type": {
              "coding": [
                {
                  "code": "FI",
                  "display": "Facility Id",
                  "system": "http://terminology.hl7.org/CodeSystem/v2-0203"
                }
              ]
            },
            "value": "MWHC"
          }
        ],
        "meta": {
          "security": [
            {
              "code": "medstar",
              "system": "https://www.icanbwell.com/access"
            }
          ]
        },
        "resourceType": "Organization",
        "type": [
          {
            "coding": [
              {
                "code": "prov",
                "display": "Healthcare Provider",
                "system": "http://terminology.hl7.org/CodeSystem/organization-type"
              }
            ]
          }
        ]
      }
    },
    {
      "resource": {
        "id": "AETNA-Aetna-Elect-Choice--EPO--Aetna-Health-Fund--Innovation-He",
        "meta": {
          "security": [
            {
              "code": "medstar",
              "system": "https://www.icanbwell.com/access"
            }
          ]
        },
        "name": "AETNA-Aetna Elect Choice/ EPO (Aetna Health Fund) Innovation Health: Network Only Plus",
        "ownedBy": {
          "reference": "Organization/AETNA"
        },
        "plan": [
          {
            "coverageArea": [
              {
                "reference": "Location/1886535265"
              }
            ],
            "identifier": [
              {
                "type": {
                  "coding": [
                    {
                      "code": "XV",
                      "display": "Health Plan",
                      "system": "http://terminology.hl7.org/CodeSystem/v2-0203"
                    }
                  ]
                },
                "value": "Aetna Elect Choice/ EPO (Aetna Health Fund) Innovation Health: Network Only Plus"
              }
            ]
          }
        ],
        "resourceType": "InsurancePlan"
      }
    },
    {
      "resource": {
        "code": [
          {
            "coding": [
              {
                "code": "doctor",
                "system": "http://terminology.hl7.org/CodeSystem/practitioner-role"
              }
            ]
          }
        ],
        "healthcareService": [
          {
            "reference": "HealthcareService/MAX-MALX"
          }
        ],
        "id": "MAX-MALX",
        "identifier": [
          {
            "system": "MedstarHealth.org",
            "type": {
              "coding": [
                {
                  "code": "Medstar Provider-Scheduling ID",
                  "display": "Medstar Provider-Scheduling ID",
                  "system": "MedstarHealth.org"
                }
              ]
            },
            "use": "usual",
            "value": "MAX-MALX"
          }
        ],
        "location": [
          {
            "reference": "Location/MAX-MALX"
          }
        ],
        "meta": {
          "security": [
            {
              "code": "medstar",
              "system": "https://www.icanbwell.com/access"
            }
          ]
        },
        "practitioner": {
          "reference": "Practitioner/1679033641"
        },
        "resourceType": "PractitionerRole",
        "specialty": [
          {
            "coding": [
              {
                "code": "Family Medicine",
                "display": "Family Medicine",
                "system": "MedstarHealth.org"
              }
            ],
            "text": "Provider's Primary Specialty"
          },
          {
            "coding": [
              {
                "code": "Family Medicine",
                "display": "Family Medicine",
                "system": "MedstarHealth.org"
              }
            ],
            "text": "Provider's Primary Specialty Group"
          }
        ]
      }
    }
  ],
  "id": "bundle-example",
  "resourceType": "Bundle",
  "type": "collection"
}
